Date,2016/09/28,
Time,16:00:00,
Memo,EKO WISER,
Sensor,MS-711,
Exposure Time(msec),200,
Sensor Temp.(deg),25.3,
Power(V),5.9,
Wavelength(nm),Irradiance(W/m2/um),
287.77,0.00,
288.21,0.00,
288.65,0.00,
289.08,0.00,
289.52,0.00,
289.95,0.00,
290.39,0.00,
290.82,0.00,
291.26,0.00,
291.69,0.00,
292.13,0.00,
292.56,0.00,
293.00,0.00,
293.43,0.00,
293.87,0.00,
294.30,0.00,
294.74,0.81,
295.17,0.94,
295.61,1.23,
296.04,1.40,
296.47,1.94,
296.91,1.81,
297.34,2.02,
297.78,2.29,
298.21,2.30,
298.65,2.63,
299.08,3.17,
299.51,3.36,
299.95,3.59,
300.38,4.09,
300.82,4.90,
301.25,5.65,
301.68,6.44,
302.12,7.69,
302.55,8.45,
302.99,9.01,
303.42,10.04,
303.85,11.20,
304.29,12.57,
304.72,14.13,
305.15,15.65,
305.59,17.47,
306.02,18.95,
306.46,20.90,
306.89,23.24,
307.32,25.38,
307.76,27.88,
308.19,30.26,
308.62,32.76,
309.06,35.30,
309.49,38.19,
309.92,41.23,
310.35,44.50,
310.79,47.21,
311.22,50.45,
311.65,53.63,
312.09,56.13,
312.52,59.39,
312.95,62.62,
313.38,65.96,
313.82,69.22,
314.25,72.41,
314.68,75.89,
315.12,78.64,
315.55,81.48,
315.98,85.57,
316.41,88.65,
316.85,91.66,
317.28,94.71,
317.71,97.83,
318.14,100.55,
318.57,103.61,
319.01,106.97,
319.44,110.08,
319.87,112.64,
320.30,116.20,
320.73,119.50,
321.17,122.30,
321.60,127.27,
322.03,132.28,
322.46,136.85,
322.89,141.41,
323.33,146.71,
323.76,151.73,
324.19,156.01,
324.62,160.66,
325.05,166.61,
325.48,171.19,
325.92,175.86,
326.35,180.79,
326.78,184.29,
327.21,188.01,
327.64,191.26,
328.07,193.99,
328.50,196.42,
328.93,197.79,
329.37,199.47,
329.80,200.36,
330.23,200.52,
330.66,202.51,
331.09,203.48,
331.52,203.56,
331.95,203.27,
332.38,203.01,
332.81,202.93,
333.24,202.21,
333.68,201.76,
334.11,202.44,
334.54,202.31,
334.97,202.60,
335.40,203.33,
335.83,204.20,
336.26,205.65,
336.69,207.12,
337.12,208.63,
337.55,210.40,
337.98,212.03,
338.41,214.18,
338.84,215.67,
339.27,216.60,
339.70,218.53,
340.13,220.24,
340.56,221.10,
340.99,221.82,
341.42,222.24,
341.85,222.88,
342.28,222.75,
342.71,222.95,
343.14,223.80,
343.57,223.91,
344.00,224.08,
344.43,224.55,
344.86,224.74,
345.29,225.74,
345.72,226.64,
346.15,228.31,
346.58,229.85,
347.01,231.57,
347.44,234.31,
347.87,236.38,
348.30,238.21,
348.73,241.10,
349.16,243.47,
349.59,245.60,
350.02,246.23,
350.44,248.88,
350.87,251.71,
351.30,254.06,
351.73,256.47,
352.16,259.03,
352.59,260.70,
353.02,261.66,
353.45,261.82,
353.88,261.38,
354.31,260.22,
354.73,258.92,
355.16,257.38,
355.59,256.08,
356.02,255.57,
356.45,255.80,
356.88,255.65,
357.31,255.15,
357.74,255.01,
358.16,255.12,
358.59,255.17,
359.02,256.63,
359.45,258.44,
359.88,261.34,
360.31,264.67,
360.73,268.99,
361.16,274.02,
361.59,279.35,
362.02,285.01,
362.45,290.07,
362.88,294.83,
363.30,299.61,
363.73,304.84,
364.16,309.49,
364.59,314.04,
365.02,318.75,
365.44,322.99,
365.87,326.92,
366.30,330.08,
366.73,333.54,
367.16,336.60,
367.58,338.82,
368.01,340.54,
368.44,341.07,
368.87,341.33,
369.29,340.10,
369.72,338.34,
370.15,335.76,
370.58,333.52,
371.00,331.99,
371.43,330.30,
371.86,328.81,
372.29,328.19,
372.71,328.20,
373.14,328.23,
373.57,329.68,
374.00,331.47,
374.42,333.85,
374.85,336.53,
375.28,339.44,
375.70,342.54,
376.13,345.73,
376.56,349.07,
376.99,351.43,
377.41,352.80,
377.84,353.99,
378.27,353.66,
378.69,351.80,
379.12,349.05,
379.55,345.53,
379.97,340.44,
380.40,335.04,
380.83,329.42,
381.25,324.59,
381.68,320.57,
382.11,317.40,
382.53,315.52,
382.96,314.10,
383.39,313.85,
383.81,314.18,
384.24,314.64,
384.67,316.37,
385.09,319.48,
385.52,324.04,
385.95,328.77,
386.37,334.45,
386.80,340.92,
387.22,347.33,
387.65,353.48,
388.08,358.74,
388.50,363.08,
388.93,366.10,
389.36,367.85,
389.78,368.42,
390.21,367.95,
390.63,367.18,
391.06,366.68,
391.49,366.04,
391.91,365.47,
392.34,365.71,
392.76,365.87,
393.19,365.56,
393.61,365.16,
394.04,365.47,
394.47,367.12,
394.89,370.85,
395.32,377.17,
395.74,387.05,
396.17,399.37,
396.59,414.71,
397.02,431.23,
397.45,448.02,
397.87,464.91,
398.30,480.94,
398.72,496.26,
399.15,511.21,
399.57,526.22,
400.00,541.78,
400.42,556.02,
400.85,568.69,
401.27,580.31,
401.70,589.20,
402.12,594.97,
402.55,599.67,
402.97,601.88,
403.40,603.51,
403.82,604.56,
404.25,605.16,
404.67,605.54,
405.10,605.90,
405.52,606.81,
405.95,607.65,
406.37,608.25,
406.80,609.68,
407.22,611.98,
407.65,613.11,
408.07,615.06,
408.50,618.20,
408.92,621.68,
409.35,625.82,
409.77,630.13,
410.20,634.56,
410.62,638.70,
411.04,643.16,
411.47,646.81,
411.89,649.83,
412.32,653.36,
412.74,656.94,
413.17,659.47,
413.59,661.43,
414.02,664.17,
414.44,666.98,
414.86,669.30,
415.29,670.51,
415.71,671.67,
416.14,672.21,
416.56,672.00,
416.99,671.93,
417.41,671.56,
417.83,672.61,
418.26,673.34,
418.68,673.63,
419.11,673.41,
419.53,673.52,
419.95,674.30,
420.38,674.92,
420.80,674.29,
421.23,674.23,
421.65,674.33,
422.07,673.82,
422.50,673.78,
422.92,673.29,
423.34,672.95,
423.77,672.32,
424.19,670.70,
424.62,668.09,
425.04,664.75,
425.46,661.55,
425.89,657.96,
426.31,652.80,
426.73,648.15,
427.16,644.00,
427.58,638.20,
428.00,633.05,
428.43,628.96,
428.85,626.52,
429.27,625.77,
429.70,626.38,
430.12,628.44,
430.54,630.82,
430.97,634.83,
431.39,639.22,
431.81,643.89,
432.24,650.28,
432.66,658.28,
433.08,666.62,
433.51,675.57,
433.93,685.54,
434.35,694.71,
434.77,702.85,
435.20,708.78,
435.62,713.90,
436.04,717.94,
436.47,720.29,
436.89,723.39,
437.31,725.55,
437.73,729.28,
438.16,734.27,
438.58,739.08,
439.00,743.94,
439.43,748.37,
439.85,753.21,
440.27,757.52,
440.69,761.82,
441.12,767.99,
441.54,774.17,
441.96,779.09,
442.38,784.62,
442.81,789.93,
443.23,794.98,
443.65,800.24,
444.07,805.28,
444.50,809.49,
444.92,813.32,
445.34,817.73,
445.76,822.18,
446.19,825.40,
446.61,830.34,
447.03,835.73,
447.45,840.65,
447.87,845.29,
448.30,851.38,
448.72,856.06,
449.14,860.77,
449.56,864.68,
449.99,868.41,
450.41,871.24,
450.83,872.90,
451.25,875.16,
451.67,875.18,
452.10,876.30,
452.52,878.53,
452.94,879.80,
453.36,881.16,
453.78,881.57,
454.20,882.74,
454.63,883.13,
455.05,883.40,
455.47,885.17,
455.89,887.51,
456.31,888.41,
456.74,890.07,
457.16,892.73,
457.58,894.52,
458.00,897.58,
458.42,900.47,
458.84,902.90,
459.27,904.85,
459.69,906.97,
460.11,909.33,
460.53,909.25,
460.95,910.61,
461.37,912.35,
461.79,912.48,
462.22,912.03,
462.64,914.56,
463.06,915.49,
463.48,916.92,
463.90,917.69,
464.32,918.09,
464.74,917.64,
465.16,917.05,
465.59,916.50,
466.01,913.76,
466.43,912.39,
466.85,913.79,
467.27,913.44,
467.69,912.77,
468.11,913.38,
468.53,914.96,
468.95,915.74,
469.38,915.10,
469.80,917.22,
470.22,918.98,
470.64,919.25,
471.06,920.61,
471.48,921.41,
471.90,921.97,
472.32,925.59,
472.74,927.41,
473.16,928.36,
473.58,930.23,
474.01,933.43,
474.43,935.94,
474.85,935.08,
475.27,936.95,
475.69,940.22,
476.11,940.17,
476.53,941.27,
476.95,945.90,
477.37,946.71,
477.79,951.00,
478.21,953.73,
478.63,954.92,
479.05,956.08,
479.47,958.58,
479.89,958.80,
480.31,957.17,
480.74,956.43,
481.16,957.82,
481.58,954.13,
482.00,949.95,
482.42,946.63,
482.84,942.55,
483.26,936.11,
483.68,929.26,
484.10,921.76,
484.52,915.65,
484.94,910.91,
485.36,906.83,
485.78,901.34,
486.20,899.13,
486.62,900.70,
487.04,899.93,
487.46,900.82,
487.88,902.51,
488.30,906.38,
488.72,908.56,
489.14,910.80,
489.56,915.18,
489.98,920.89,
490.40,924.58,
490.82,929.30,
491.24,933.20,
491.66,936.02,
492.08,941.79,
492.50,943.88,
492.92,944.45,
493.34,945.81,
493.76,947.29,
494.18,948.31,
494.60,947.84,
495.02,948.21,
495.44,951.67,
495.86,950.75,
496.28,950.41,
496.70,951.33,
497.12,949.89,
497.54,947.49,
497.95,944.73,
498.37,940.48,
498.79,937.30,
499.21,934.12,
499.63,931.09,
500.05,926.54,
500.47,924.64,
500.89,923.81,
501.31,921.37,
501.73,918.61,
502.15,918.30,
502.57,918.22,
502.99,918.77,
503.41,919.38,
503.83,920.97,
504.25,923.38,
504.67,924.32,
505.08,926.56,
505.50,927.67,
505.92,928.77,
506.34,931.18,
506.76,932.05,
507.18,933.98,
507.60,936.59,
508.02,938.86,
508.44,940.92,
508.86,941.04,
509.28,940.52,
509.70,942.48,
510.11,940.53,
510.53,940.44,
510.95,940.49,
511.37,939.52,
511.79,939.07,
512.21,938.91,
512.63,936.31,
513.05,933.42,
513.47,928.86,
513.88,923.43,
514.30,916.60,
514.72,910.49,
515.14,906.08,
515.56,900.85,
515.98,896.07,
516.40,894.64,
516.82,892.50,
517.23,890.98,
517.65,891.13,
518.07,892.20,
518.49,893.56,
518.91,894.58,
519.33,897.83,
519.75,900.29,
520.17,903.84,
520.58,908.88,
521.00,913.77,
521.42,917.94,
521.84,924.90,
522.26,928.73,
522.68,931.60,
523.09,932.45,
523.51,934.00,
523.93,933.64,
524.35,931.60,
524.77,930.84,
525.19,931.25,
525.60,931.20,
526.02,933.38,
526.44,936.46,
526.86,938.90,
527.28,942.18,
527.70,943.60,
528.11,944.33,
528.53,943.50,
528.95,945.37,
529.37,947.88,
529.79,948.70,
530.21,950.07,
530.62,953.55,
531.04,955.21,
531.46,956.26,
531.88,957.61,
532.30,958.71,
532.71,959.26,
533.13,958.21,
533.55,957.30,
533.97,955.92,
534.39,954.43,
534.80,955.14,
535.22,953.77,
535.64,952.30,
536.06,953.85,
536.48,952.68,
536.89,952.08,
537.31,949.90,
537.73,949.37,
538.15,947.37,
538.56,944.51,
538.98,942.25,
539.40,940.80,
539.82,938.69,
540.24,938.92,
540.65,940.38,
541.07,939.51,
541.49,941.04,
541.91,941.45,
542.32,940.31,
542.74,940.23,
543.16,940.31,
543.58,941.87,
543.99,942.67,
544.41,943.06,
544.83,945.89,
545.25,946.02,
545.66,946.59,
546.08,947.51,
546.50,949.51,
546.92,949.41,
547.33,950.58,
547.75,950.83,
548.17,950.64,
548.59,950.10,
549.00,952.45,
549.42,953.67,
549.84,953.55,
550.26,955.36,
550.67,955.95,
551.09,955.10,
551.51,955.23,
551.93,957.13,
552.34,957.52,
552.76,954.90,
553.18,954.84,
553.59,953.73,
554.01,949.69,
554.43,949.47,
554.85,948.21,
555.26,946.41,
555.68,943.40,
556.10,942.21,
556.51,939.10,
556.93,936.04,
557.35,933.60,
557.77,932.89,
558.18,929.55,
558.60,927.46,
559.02,928.02,
559.43,925.95,
559.85,925.57,
560.27,926.48,
560.68,927.27,
561.10,927.79,
561.52,927.54,
561.93,928.62,
562.35,928.98,
562.77,926.77,
563.19,928.14,
563.60,927.85,
564.02,926.14,
564.44,926.07,
564.85,924.88,
565.27,922.82,
565.69,919.84,
566.10,918.36,
566.52,917.29,
566.94,915.22,
567.35,913.56,
567.77,912.66,
568.19,907.93,
568.60,906.55,
569.02,907.31,
569.44,905.80,
569.85,904.50,
570.27,904.83,
570.69,904.26,
571.10,903.97,
571.52,902.61,
571.93,904.85,
572.35,904.66,
572.77,904.06,
573.18,903.83,
573.60,902.23,
574.02,901.92,
574.43,904.08,
574.85,904.96,
575.27,904.78,
575.68,904.98,
576.10,905.61,
576.52,905.21,
576.93,903.20,
577.35,904.50,
577.76,906.65,
578.18,908.84,
578.60,910.10,
579.01,912.32,
579.43,915.13,
579.85,919.19,
580.26,921.19,
580.68,924.34,
581.09,925.20,
581.51,926.19,
581.93,926.56,
582.34,925.48,
582.76,925.29,
583.17,926.30,
583.59,924.90,
584.01,921.26,
584.42,917.26,
584.84,912.83,
585.25,907.73,
585.67,899.20,
586.09,891.67,
586.50,883.27,
586.92,875.52,
587.33,868.94,
587.75,863.77,
588.17,858.70,
588.58,857.17,
589.00,853.71,
589.41,850.70,
589.83,847.44,
590.25,846.62,
590.66,844.61,
591.08,843.18,
591.49,843.42,
591.91,844.87,
592.32,846.84,
592.74,850.30,
593.16,852.62,
593.57,855.92,
593.99,860.22,
594.40,861.95,
594.82,863.94,
595.23,865.51,
595.65,867.48,
596.07,869.71,
596.48,870.97,
596.90,873.72,
597.31,878.40,
597.73,880.71,
598.14,884.09,
598.56,887.39,
598.97,889.25,
599.39,891.30,
599.81,891.82,
600.22,892.63,
600.64,894.34,
601.05,895.95,
601.47,897.30,
601.88,898.89,
602.30,900.82,
602.71,904.18,
603.13,904.22,
603.54,904.26,
603.96,904.94,
604.37,905.26,
604.79,904.60,
605.21,905.31,
605.62,906.33,
606.04,907.44,
606.45,906.45,
606.87,906.06,
607.28,903.87,
607.70,902.45,
608.11,900.85,
608.53,898.38,
608.94,896.12,
609.36,895.34,
609.77,894.08,
610.19,892.08,
610.60,890.73,
611.02,889.46,
611.43,889.05,
611.85,886.45,
612.26,884.46,
612.68,883.16,
613.09,882.27,
613.51,881.29,
613.92,880.97,
614.34,880.55,
614.75,881.89,
615.17,880.94,
615.58,882.13,
616.00,881.54,
616.41,882.32,
616.83,883.35,
617.24,883.11,
617.66,882.65,
618.07,883.60,
618.49,884.29,
618.90,884.29,
619.32,884.45,
619.73,885.03,
620.15,884.92,
620.56,882.69,
620.98,881.24,
621.39,879.11,
621.80,876.95,
622.22,875.61,
622.63,873.46,
623.05,870.84,
623.46,869.73,
623.88,867.07,
624.29,863.93,
624.71,860.01,
625.12,857.11,
625.54,853.76,
625.95,849.65,
626.37,846.83,
626.78,847.04,
627.19,845.09,
627.61,843.05,
628.02,842.79,
628.44,841.73,
628.85,841.47,
629.27,840.01,
629.68,839.46,
630.10,839.69,
630.51,841.97,
630.92,843.12,
631.34,845.46,
631.75,848.11,
632.17,852.73,
632.58,854.75,
633.00,855.75,
633.41,857.74,
633.82,860.57,
634.24,862.90,
634.65,863.56,
635.07,865.04,
635.48,867.81,
635.90,868.86,
636.31,870.24,
636.72,870.49,
637.14,871.72,
637.55,873.56,
637.97,873.03,
638.38,871.62,
638.80,872.04,
639.21,871.65,
639.62,870.84,
640.04,869.25,
640.45,867.28,
640.87,867.72,
641.28,866.51,
641.69,864.12,
642.11,863.35,
642.52,861.34,
642.94,858.58,
643.35,853.32,
643.76,848.72,
644.18,843.97,
644.59,840.61,
645.01,836.15,
645.42,832.62,
645.83,829.33,
646.25,827.68,
646.66,825.66,
647.07,823.67,
647.49,821.62,
647.90,820.55,
648.32,818.47,
648.73,817.93,
649.14,818.18,
649.56,820.13,
649.97,820.66,
650.38,821.90,
650.80,822.20,
651.21,822.27,
651.63,821.93,
652.04,819.36,
652.45,816.82,
652.87,813.96,
653.28,810.02,
653.69,806.72,
654.11,804.86,
654.52,803.37,
654.93,803.91,
655.35,804.48,
655.76,805.35,
656.17,807.10,
656.59,809.28,
657.00,811.24,
657.42,813.75,
657.83,817.28,
658.24,824.63,
658.66,830.75,
659.07,836.04,
659.48,843.30,
659.90,849.76,
660.31,855.45,
660.72,858.96,
661.14,861.32,
661.55,863.00,
661.96,863.19,
662.38,864.23,
662.79,864.52,
663.20,865.29,
663.62,867.44,
664.03,868.38,
664.44,867.21,
664.85,866.49,
665.27,867.21,
665.68,867.18,
666.09,865.38,
666.51,864.74,
666.92,865.68,
667.33,865.25,
667.75,864.41,
668.16,865.66,
668.57,865.26,
668.99,865.02,
669.40,864.41,
669.81,863.88,
670.23,863.03,
670.64,862.15,
671.05,862.03,
671.46,860.86,
671.88,860.25,
672.29,861.37,
672.70,861.94,
673.12,861.26,
673.53,861.15,
673.94,861.44,
674.35,860.56,
674.77,858.61,
675.18,858.43,
675.59,859.92,
676.01,859.50,
676.42,859.09,
676.83,859.09,
677.24,858.18,
677.66,858.40,
678.07,858.44,
678.48,857.30,
678.89,855.98,
679.31,855.05,
679.72,854.32,
680.13,853.15,
680.55,851.91,
680.96,852.48,
681.37,849.74,
681.78,844.55,
682.20,839.11,
682.61,833.34,
683.02,827.20,
683.43,819.60,
683.85,811.19,
684.26,801.05,
684.67,790.35,
685.08,779.80,
685.50,770.92,
685.91,762.39,
686.32,755.28,
686.73,747.73,
687.15,739.72,
687.56,734.38,
687.97,730.71,
688.38,728.57,
688.79,725.46,
689.21,723.74,
689.62,726.07,
690.03,727.14,
690.44,728.45,
690.86,729.71,
691.27,731.82,
691.68,732.67,
692.09,730.74,
692.50,731.30,
692.92,732.83,
693.33,734.10,
693.74,734.68,
694.15,735.96,
694.57,737.10,
694.98,740.51,
695.39,742.27,
695.80,741.96,
696.21,741.46,
696.63,741.95,
697.04,744.23,
697.45,744.37,
697.86,744.15,
698.27,748.70,
698.69,747.70,
699.10,745.95,
699.51,744.31,
699.92,744.39,
700.33,743.90,
700.75,742.51,
701.16,742.13,
701.57,743.29,
701.98,742.90,
702.39,744.08,
702.80,747.51,
703.22,750.51,
703.63,756.11,
704.04,761.17,
704.45,763.25,
704.86,765.60,
705.27,769.13,
705.69,772.66,
706.10,772.78,
706.51,773.39,
706.92,778.62,
707.33,779.09,
707.74,779.60,
708.16,781.14,
708.57,783.48,
708.98,784.33,
709.39,782.53,
709.80,781.06,
710.21,779.21,
710.63,775.46,
711.04,773.05,
711.45,770.00,
711.86,764.66,
712.27,761.86,
712.68,754.53,
713.09,741.99,
713.51,729.38,
713.92,715.03,
714.33,700.09,
714.74,681.51,
715.15,664.10,
715.56,650.38,
715.97,633.28,
716.38,616.40,
716.80,602.97,
717.21,591.50,
717.62,580.79,
718.03,573.43,
718.44,567.14,
718.85,562.57,
719.26,560.53,
719.67,561.47,
720.08,562.83,
720.50,565.06,
720.91,572.35,
721.32,576.76,
721.73,576.54,
722.14,578.81,
722.55,582.47,
722.96,584.61,
723.37,582.23,
723.78,582.33,
724.19,582.01,
724.61,578.63,
725.02,574.62,
725.43,572.75,
725.84,571.16,
726.25,570.89,
726.66,570.81,
727.07,570.49,
727.48,570.21,
727.89,572.98,
728.30,577.39,
728.71,581.40,
729.12,588.06,
729.54,599.57,
729.95,606.67,
730.36,613.05,
730.77,621.27,
731.18,631.97,
731.59,641.46,
732.00,648.09,
732.41,658.04,
732.82,669.51,
733.23,677.02,
733.64,683.85,
734.05,690.84,
734.46,697.27,
734.87,704.12,
735.28,707.76,
735.69,709.54,
736.10,713.21,
736.51,714.01,
736.93,717.29,
737.34,717.94,
737.75,722.11,
738.16,728.25,
738.57,731.36,
738.98,732.27,
739.39,734.39,
739.80,740.02,
740.21,745.37,
740.62,748.19,
741.03,752.31,
741.44,756.96,
741.85,759.40,
742.26,761.83,
742.67,764.85,
743.08,769.48,
743.49,772.98,
743.90,773.61,
744.31,773.34,
744.72,773.56,
745.13,773.16,
745.54,774.53,
745.95,773.02,
746.36,771.73,
746.77,774.58,
747.18,774.19,
747.59,771.13,
748.00,769.46,
748.41,769.41,
748.82,770.20,
749.23,764.54,
749.64,764.28,
750.05,766.16,
750.46,762.46,
750.87,760.48,
751.28,760.49,
751.69,760.80,
752.10,760.48,
752.51,760.96,
752.92,757.17,
753.33,753.73,
753.74,749.56,
754.15,746.84,
754.56,737.34,
754.96,727.80,
755.37,719.10,
755.78,700.73,
756.19,675.94,
756.60,651.96,
757.01,623.89,
757.42,592.13,
757.83,557.64,
758.24,523.94,
758.65,493.12,
759.06,459.88,
759.47,431.43,
759.88,404.34,
760.29,380.99,
760.70,360.37,
761.11,345.24,
761.52,334.14,
761.92,329.87,
762.33,333.41,
762.74,344.13,
763.15,357.59,
763.56,378.46,
763.97,405.43,
764.38,431.78,
764.79,454.65,
765.20,482.61,
765.61,508.67,
766.02,536.20,
766.43,562.01,
766.83,588.22,
767.24,614.09,
767.65,631.87,
768.06,650.85,
768.47,664.92,
768.88,678.93,
769.29,693.49,
769.70,704.97,
770.11,711.41,
770.52,716.22,
770.92,721.48,
771.33,726.89,
771.74,727.61,
772.15,730.77,
772.56,735.01,
772.97,735.11,
773.38,733.40,
773.79,734.40,
774.19,736.94,
774.60,740.81,
775.01,742.26,
775.42,743.96,
775.83,743.59,
776.24,741.67,
776.65,742.41,
777.05,741.53,
777.46,740.28,
777.87,742.95,
778.28,743.76,
778.69,740.33,
779.10,737.95,
779.50,737.93,
779.91,738.60,
780.32,734.95,
780.73,735.03,
781.14,737.05,
781.55,733.57,
781.95,730.32,
782.36,727.38,
782.77,725.91,
783.18,725.49,
783.59,723.82,
784.00,719.17,
784.40,715.81,
784.81,710.99,
785.22,708.64,
785.63,701.03,
786.04,697.97,
786.44,697.48,
786.85,693.38,
787.26,687.01,
787.67,682.54,
788.08,678.61,
788.48,678.65,
788.89,672.50,
789.30,673.25,
789.71,674.76,
790.12,671.89,
790.52,669.06,
790.93,667.23,
791.34,667.72,
791.75,669.74,
792.15,668.35,
792.56,665.81,
792.97,667.72,
793.38,665.79,
793.78,664.52,
794.19,663.18,
794.60,664.81,
795.01,671.39,
795.42,668.66,
795.82,666.32,
796.23,666.49,
796.64,666.68,
797.05,668.14,
797.45,666.15,
797.86,667.04,
798.27,670.81,
798.67,668.86,
799.08,665.28,
799.49,663.73,
799.90,666.01,
800.30,669.43,
800.71,668.98,
801.12,666.33,
801.53,666.84,
801.93,665.26,
802.34,664.93,
802.75,661.98,
803.15,664.60,
803.56,669.14,
803.97,670.11,
804.38,667.69,
804.78,669.25,
805.19,670.04,
805.60,671.18,
806.00,670.45,
806.41,668.05,
806.82,667.86,
807.22,662.04,
807.63,656.98,
808.04,649.97,
808.44,645.56,
808.85,641.33,
809.26,633.29,
809.67,622.54,
810.07,611.39,
810.48,599.66,
810.89,587.48,
811.29,572.96,
811.70,560.02,
812.11,547.65,
812.51,534.96,
812.92,520.08,
813.32,507.77,
813.73,496.43,
814.14,487.82,
814.54,477.96,
814.95,471.43,
815.36,468.02,
815.76,461.80,
816.17,458.32,
816.58,455.82,
816.98,456.43,
817.39,461.52,
817.79,464.94,
818.20,465.05,
818.61,464.92,
819.01,466.87,
819.42,468.94,
819.83,468.33,
820.23,471.47,
820.64,476.90,
821.04,478.09,
821.45,477.93,
821.86,480.63,
822.26,484.56,
822.67,488.59,
823.07,491.23,
823.48,491.98,
823.89,495.29,
824.29,496.41,
824.70,498.66,
825.10,498.61,
825.51,502.61,
825.91,507.06,
826.32,510.29,
826.73,511.40,
827.13,513.03,
827.54,513.85,
827.94,514.73,
828.35,513.13,
828.75,515.57,
829.16,517.45,
829.57,518.09,
829.97,517.05,
830.38,519.40,
830.78,522.72,
831.19,528.38,
831.59,532.10,
832.00,536.42,
832.40,542.37,
832.81,544.83,
833.21,548.11,
833.62,551.02,
834.02,556.21,
834.43,562.20,
834.83,566.08,
835.24,569.52,
835.64,572.92,
836.05,576.99,
836.45,582.61,
836.86,585.77,
837.26,590.65,
837.67,595.62,
838.07,599.06,
838.48,599.44,
838.88,602.41,
839.29,607.19,
839.69,612.38,
840.10,614.68,
840.50,616.76,
840.91,617.61,
841.31,617.04,
841.72,618.86,
842.12,618.37,
842.53,619.75,
842.93,621.71,
843.34,623.30,
843.74,622.91,
844.15,621.39,
844.55,622.61,
844.95,623.73,
845.36,621.21,
845.76,620.35,
846.17,622.30,
846.57,621.02,
846.98,618.86,
847.38,617.18,
847.79,616.60,
848.19,615.75,
848.59,615.13,
849.00,612.79,
849.40,610.08,
849.81,606.15,
850.21,604.87,
850.61,599.87,
851.02,596.34,
851.42,595.58,
851.83,593.88,
852.23,590.03,
852.63,588.05,
853.04,588.53,
853.44,591.06,
853.85,590.37,
854.25,591.99,
854.65,594.48,
855.06,595.63,
855.46,596.08,
855.86,597.37,
856.27,600.23,
856.67,603.99,
857.08,607.75,
857.48,610.19,
857.88,614.37,
858.29,615.45,
858.69,618.36,
859.09,618.13,
859.50,618.71,
859.90,620.13,
860.30,620.84,
860.71,618.00,
861.11,616.47,
861.51,615.02,
861.92,613.82,
862.32,610.46,
862.72,609.25,
863.13,607.93,
863.53,603.06,
863.93,598.48,
864.34,595.91,
864.74,593.99,
865.14,592.95,
865.54,592.65,
865.95,592.08,
866.35,591.84,
866.75,591.01,
867.16,591.80,
867.56,591.55,
867.96,593.19,
868.36,595.11,
868.77,597.07,
869.17,597.48,
869.57,598.94,
869.98,600.87,
870.38,603.53,
870.78,603.57,
871.18,604.89,
871.59,605.78,
871.99,603.61,
872.39,602.60,
872.79,601.48,
873.20,601.73,
873.60,601.77,
874.00,601.14,
874.40,600.87,
874.80,600.55,
875.21,599.32,
875.61,599.36,
876.01,597.77,
876.41,596.33,
876.82,596.59,
877.22,595.65,
877.62,593.16,
878.02,592.07,
878.42,591.39,
878.82,591.35,
879.23,590.29,
879.63,589.72,
880.03,591.51,
880.43,590.07,
880.83,587.18,
881.24,585.67,
881.64,585.12,
882.04,584.49,
882.44,584.41,
882.84,583.66,
883.24,583.26,
883.65,582.41,
884.05,581.46,
884.45,578.48,
884.85,578.42,
885.25,577.56,
885.65,577.03,
886.05,574.00,
886.46,573.82,
886.86,573.35,
887.26,572.62,
887.66,570.51,
888.06,570.56,
888.46,569.22,
888.86,565.85,
889.26,561.79,
889.66,557.38,
890.07,553.96,
890.47,550.80,
890.87,545.66,
891.27,537.97,
891.67,531.07,
892.07,521.81,
892.47,511.73,
892.87,500.64,
893.27,490.32,
893.67,479.99,
894.07,467.31,
894.47,454.26,
894.87,441.94,
895.27,430.17,
895.67,419.13,
896.08,408.10,
896.48,397.49,
896.88,388.12,
897.28,379.67,
897.68,370.59,
898.08,362.25,
898.48,357.78,
898.88,354.64,
899.28,352.81,
899.68,351.38,
900.08,352.93,
900.48,355.69,
900.88,358.66,
901.28,362.22,
901.68,368.88,
902.08,374.12,
902.48,379.00,
902.88,381.88,
903.28,384.49,
903.68,386.15,
904.08,388.49,
904.48,387.50,
904.88,387.48,
905.28,386.01,
905.68,382.14,
906.07,375.83,
906.47,369.38,
906.87,364.72,
907.27,359.89,
907.67,353.05,
908.07,346.78,
908.47,341.08,
908.87,335.91,
909.27,332.37,
909.67,328.91,
910.07,326.97,
910.47,326.09,
910.87,323.34,
911.27,320.63,
911.66,318.97,
912.06,318.92,
912.46,318.89,
912.86,318.10,
913.26,317.10,
913.66,317.25,
914.06,315.36,
914.46,314.14,
914.85,313.63,
915.25,314.45,
915.65,316.87,
916.05,319.58,
916.45,322.40,
916.85,327.80,
917.25,332.43,
917.64,338.17,
918.04,342.62,
918.44,348.01,
918.84,353.33,
919.24,358.17,
919.64,361.24,
920.03,364.66,
920.43,367.85,
920.83,371.10,
921.23,372.50,
921.63,373.55,
922.02,373.90,
922.42,372.04,
922.82,368.99,
923.22,364.81,
923.62,360.84,
924.01,356.72,
924.41,351.34,
924.81,344.14,
925.21,336.25,
925.60,326.24,
926.00,317.02,
926.40,305.17,
926.80,294.19,
927.19,282.26,
927.59,269.43,
927.99,253.77,
928.39,238.89,
928.78,224.09,
929.18,209.59,
929.58,194.26,
929.98,178.33,
930.37,164.77,
930.77,148.83,
931.17,135.24,
931.56,122.37,
931.96,112.25,
932.36,103.36,
932.75,95.10,
933.15,87.32,
933.55,81.51,
933.94,76.14,
934.34,72.96,
934.74,69.55,
935.13,69.21,
935.53,70.11,
935.93,71.33,
936.32,72.11,
936.72,75.80,
937.12,79.84,
937.51,85.00,
937.91,89.09,
938.31,92.70,
938.70,97.51,
939.10,99.93,
939.49,100.90,
939.89,102.11,
940.29,104.76,
940.68,106.79,
941.08,107.37,
941.47,106.53,
941.87,107.16,
942.27,105.89,
942.66,104.49,
943.06,101.67,
943.45,101.32,
943.85,99.45,
944.24,99.28,
944.64,96.96,
945.04,96.31,
945.43,96.52,
945.83,99.04,
946.22,100.32,
946.62,102.11,
947.01,104.50,
947.41,105.42,
947.80,105.33,
948.20,104.16,
948.59,106.41,
948.99,108.83,
949.38,109.87,
949.78,109.84,
950.17,110.64,
950.57,111.76,
950.96,113.67,
951.36,113.89,
951.75,115.76,
952.15,117.40,
952.54,117.71,
952.94,117.75,
953.33,117.73,
953.73,120.48,
954.12,124.83,
954.51,127.25,
954.91,129.39,
955.30,133.77,
955.70,135.95,
956.09,137.52,
956.49,137.72,
956.88,140.64,
957.27,143.77,
957.67,145.57,
958.06,147.07,
958.46,151.57,
958.85,153.95,
959.24,158.59,
959.64,161.00,
960.03,165.40,
960.42,169.05,
960.82,172.22,
961.21,173.92,
961.61,177.52,
962.00,181.62,
962.39,187.69,
962.79,193.07,
963.18,198.05,
963.57,205.15,
963.97,211.40,
964.36,216.69,
964.75,222.16,
965.15,229.65,
965.54,237.80,
965.93,246.44,
966.32,253.40,
966.72,263.32,
967.11,270.87,
967.50,280.07,
967.90,288.11,
968.29,296.28,
968.68,303.53,
969.07,309.22,
969.47,313.73,
969.86,316.38,
970.25,319.90,
970.64,322.41,
971.04,324.17,
971.43,323.67,
971.82,323.14,
972.21,322.21,
972.61,319.69,
973.00,316.58,
973.39,315.26,
973.78,315.32,
974.17,314.26,
974.57,313.39,
974.96,313.41,
975.35,313.36,
975.74,315.38,
976.13,317.05,
976.53,320.56,
976.92,324.44,
977.31,327.12,
977.70,329.41,
978.09,331.94,
978.48,335.93,
978.87,342.49,
979.27,346.90,
979.66,351.31,
980.05,357.04,
980.44,360.91,
980.83,365.33,
981.22,368.67,
981.61,374.70,
982.00,379.21,
982.39,384.31,
982.79,386.83,
983.18,392.78,
983.57,397.80,
983.96,403.97,
984.35,408.91,
984.74,413.74,
985.13,418.28,
985.52,421.08,
985.91,423.65,
986.30,426.21,
986.69,429.32,
987.08,433.16,
987.47,436.08,
987.86,438.71,
988.25,442.06,
988.64,444.45,
989.03,446.34,
989.42,446.80,
989.81,448.96,
990.20,450.43,
990.59,451.73,
990.98,452.13,
991.37,453.46,
991.76,454.57,
992.15,456.48,
992.54,459.46,
992.93,461.07,
993.32,463.25,
993.71,464.41,
994.10,464.15,
994.49,463.36,
994.87,464.56,
995.26,467.63,
995.65,468.72,
996.04,468.45,
996.43,469.84,
996.82,469.75,
997.21,469.72,
997.60,467.81,
997.99,468.08,
998.38,467.14,
998.76,465.57,
999.15,462.65,
999.54,461.09,
999.93,459.05,
1000.32,458.94,
1000.71,457.50,
1001.09,455.73,
1001.48,454.60,
1001.87,452.52,
1002.26,449.78,
1002.65,447.07,
1003.03,446.15,
1003.42,446.47,
1003.81,445.75,
1004.20,444.32,
1004.59,444.47,
1004.97,444.45,
1005.36,444.05,
1005.75,442.58,
1006.14,443.67,
1006.52,443.92,
1006.91,443.98,
1007.30,442.95,
1007.69,443.49,
1008.07,443.74,
1008.46,445.01,
1008.85,446.38,
1009.23,446.96,
1009.62,447.65,
1010.01,446.94,
1010.40,446.95,
1010.78,446.09,
1011.17,447.02,
1011.56,449.36,
1011.94,449.29,
1012.33,447.61,
1012.72,448.42,
1013.10,447.84,
1013.49,449.39,
1013.87,448.53,
1014.26,449.29,
1014.65,449.61,
1015.03,448.88,
1015.42,447.15,
1015.81,445.28,
1016.19,445.60,
1016.58,445.98,
1016.96,447.45,
1017.35,446.67,
1017.73,447.73,
1018.12,447.88,
1018.51,446.22,
1018.89,443.26,
1019.28,442.64,
1019.66,443.86,
1020.05,443.36,
1020.43,440.28,
1020.82,442.80,
1021.20,441.65,
1021.59,442.90,
1021.97,439.70,
1022.36,441.79,
1022.74,440.48,
1023.13,439.78,
1023.51,435.95,
1023.90,434.60,
1024.28,433.88,
1024.67,435.00,
1025.05,436.44,
1025.44,435.99,
1025.82,436.61,
1026.21,436.73,
1026.59,435.06,
1026.97,432.34,
1027.36,433.48,
1027.74,435.03,
1028.13,434.88,
1028.51,433.94,
1028.89,436.51,
1029.28,436.57,
1029.66,436.57,
1030.05,437.81,
1030.43,439.70,
1030.81,438.76,
1031.20,435.76,
1031.58,434.48,
1031.96,433.37,
1032.35,431.41,
1032.73,433.35,
1033.11,435.61,
1033.50,435.39,
1033.88,434.83,
1034.26,434.87,
1034.65,432.18,
1035.03,427.86,
1035.41,428.21,
1035.79,428.90,
1036.18,429.19,
1036.56,427.33,
1036.94,431.61,
1037.32,431.23,
1037.71,432.11,
1038.09,432.53,
1038.47,434.31,
1038.85,432.73,
1039.24,431.83,
1039.62,428.49,
1040.00,425.07,
1040.38,425.05,
1040.76,429.06,
1041.15,429.81,
1041.53,428.46,
1041.91,431.19,
1042.29,429.34,
1042.67,425.62,
1043.05,419.50,
1043.44,421.34,
1043.82,421.09,
1044.20,419.93,
1044.58,417.85,
1044.96,419.34,
1045.34,418.41,
1045.72,419.57,
1046.10,417.97,
1046.48,420.60,
1046.87,421.83,
1047.25,418.43,
1047.63,413.86,
1048.01,410.58,
1048.39,409.55,
1048.77,413.44,
1049.15,413.98,
1049.53,413.88,
1049.91,417.31,
1050.29,415.08,
1050.67,414.04,
1051.05,409.01,
1051.43,411.02,
1051.81,411.52,
1052.19,408.79,
1052.57,403.07,
1052.95,404.81,
1053.33,404.43,
1053.71,405.86,
1054.09,406.23,
1054.47,409.25,
1054.85,407.88,
1055.23,405.39,
1055.60,399.78,
1055.98,394.33,
1056.36,394.65,
1056.74,398.38,
1057.12,398.10,
1057.50,399.68,
1057.88,401.32,
1058.26,400.88,
1058.64,399.03,
1059.01,390.14,
1059.39,393.58,
1059.77,392.76,
1060.15,392.93,
1060.53,386.88,
1060.91,386.19,
1061.28,387.63,
1061.66,393.38,
1062.04,395.70,
1062.42,398.95,
1062.80,401.25,
1063.17,394.79,
1063.55,389.26,
1063.93,383.84,
1064.31,384.20,
1064.68,386.43,
1065.06,385.18,
1065.44,383.45,
1065.82,386.02,
1066.19,382.90,
1066.57,382.26,
1066.95,374.70,
1067.32,378.47,
1067.70,376.16,
1068.08,372.41,
1068.45,366.06,
1068.83,365.96,
1069.21,365.13,
1069.58,370.98,
1069.96,376.35,
1070.34,383.34,
1070.71,388.78,
1071.09,385.60,
1071.47,376.83,
1071.84,373.87,
1072.22,372.95,
1072.59,378.38,
1072.97,378.22,
1073.35,374.08,
1073.72,376.90,
1074.10,373.10,
1074.47,376.59,
1074.85,364.88,
1075.22,368.82,
1075.60,360.94,
1075.97,357.47,
1076.35,349.12,
1076.72,349.12,
1077.10,352.52,
1077.47,357.09,
1077.85,363.30,
1078.22,365.15,
1078.60,366.90,
1078.97,363.91,
1079.35,357.91,
1079.72,345.44,
1080.10,345.47,
1080.47,354.14,
1080.84,352.69,
1081.22,347.72,
1081.59,355.13,
1081.97,353.37,
1082.34,350.94,
1082.71,338.78,
1083.09,344.86,
1083.46,339.77,
1083.83,334.30,
1084.21,324.53,
1084.58,322.88,
1084.95,322.94,
1085.33,334.09,
1085.70,339.78,
1086.07,349.87,
1086.45,355.53,
1086.82,351.55,
1087.19,338.48,
1087.57,325.51,
1087.94,319.94,
1088.31,322.96,
1088.68,316.93,
1089.06,310.56,
1089.43,313.65,
1089.80,308.71,
1090.17,307.51,
1090.54,294.13,
1090.92,299.67,
1091.29,292.93,
1091.66,278.21,
1092.03,261.28,
1092.40,251.92,
1092.78,247.22,
1093.15,259.15,
1093.52,273.53,
1093.89,279.11,
1094.26,291.73,
1094.63,290.13,
1095.00,282.87,
1095.37,262.52,
1095.75,267.75,
1096.12,273.30,
1096.49,267.81,
1096.86,251.11,
1097.23,262.51,
1097.60,255.16,
1097.97,260.94,
1098.34,249.75,
1098.71,261.65,
1099.08,253.72,
1099.45,247.39,
1099.82,226.23,
1100.19,217.90,
1100.56,0.00,
1100.93,0.00,
1101.30,0.00,
1101.67,0.00,
1102.04,0.00,
1102.41,0.00,
1102.78,0.00,
1103.15,0.00,
1103.52,0.00,
1103.88,0.00,
1104.25,0.00,
1104.62,0.00,
1104.99,0.00,
1105.36,0.00,
1105.73,0.00,
1106.10,0.00,
1106.47,0.00,
1106.83,0.00,
1107.20,0.00,
1107.57,0.00,
1107.94,0.00,
1108.31,0.00,
1108.67,0.00,
1109.04,0.00,
1109.41,0.00,
1109.78,0.00,
1110.15,0.00,
1110.51,0.00,
1110.88,0.00,
1111.25,0.00,
1111.62,0.00,
1111.98,0.00,
1112.35,0.00,
1112.72,0.00,
1113.08,0.00,
1113.45,0.00,
1113.82,0.00,
1114.18,0.00,
1114.55,0.00,
1114.92,0.00,
1115.28,0.00,
1115.65,0.00,
1116.02,0.00,
1116.38,0.00,
1116.75,0.00,
1117.11,0.00,
1117.48,0.00,
1117.84,0.00,
1118.21,0.00,
1118.58,0.00,
1118.94,0.00,
1119.31,0.00,
1119.67,0.00,
1120.04,0.00,
1120.40,0.00,
1120.77,0.00,
1121.13,0.00,
1121.50,0.00,
1121.86,0.00,
